    Freq(Hz),                     FSD, Direction=,3, M0=,231.60, Q=,10.00, RMS=,1648.78
       20.00,             4936.571619,
       20.05,             4939.977825,
       20.09,             4943.402736,
       20.14,             4946.848428,
       20.19,             4950.314903,
       20.23,             4953.801120,
       20.28,             4957.308120,
       20.33,             4960.834863,
       20.38,             4964.382389,
       20.42,             4967.951735,
       20.47,             4971.541864,
       20.52,             4975.152775,
       20.57,             4978.785508,
       20.61,             4982.439022,
       20.66,             4986.115397,
       20.71,             4989.812555,
       20.76,             4993.531533,
       20.81,             4997.273372,
       20.86,             5001.037033,
       20.90,             5004.823554,
       20.95,             5008.631896,
       21.00,             5012.464138,
       21.05,             5016.318201,
       21.10,             5020.196163,
       21.15,             5024.096986,
       21.20,             5028.020670,
       21.25,             5031.968253,
       21.30,             5035.939736,
       21.35,             5039.936157,
       21.40,             5043.955439,
       21.45,             5047.998620,
       21.50,             5052.067779,
       21.55,             5056.159799,
       21.60,             5060.277796,
       21.65,             5064.420732,
       21.70,             5068.588607,
       21.75,             5072.781420,
       21.80,             5077.000211,
       21.85,             5081.244980,
       21.90,             5085.515726,
       21.95,             5089.812451,
       22.00,             5094.135153,
       22.05,             5098.483833,
       22.10,             5102.860569,
       22.16,             5107.263283,
       22.21,             5111.693013,
       22.26,             5116.150800,
       22.31,             5120.635603,
       22.36,             5125.148463,
       22.41,             5129.689379,
       22.47,             5134.257311,
       22.52,             5138.854338,
       22.57,             5143.480461,
       22.62,             5148.134640,
       22.68,             5152.817913,
       22.73,             5157.531321,
       22.78,             5162.272785,
       22.84,             5167.045423,
       22.89,             5171.847155,
       22.94,             5176.679022,
       23.00,             5181.541023,
       23.05,             5186.434197,
       23.10,             5191.357505,
       23.16,             5196.311987,
       23.21,             5201.298681,
       23.26,             5206.316549,
       23.32,             5211.365589,
       23.37,             5216.446843,
       23.43,             5221.561348,
       23.48,             5226.708065,
       23.54,             5231.886995,
       23.59,             5237.099176,
       23.65,             5242.345648,
       23.70,             5247.625371,
       23.76,             5252.938346,
       23.81,             5258.285612,
       23.87,             5263.668208,
       23.92,             5269.084055,
       23.98,             5274.536271,
       24.03,             5280.022777,
       24.09,             5285.545653,
       24.15,             5291.103858,
       24.20,             5296.698432,
       24.26,             5302.329375,
       24.32,             5307.996687,
       24.37,             5313.701407,
       24.43,             5319.443535,
       24.49,             5325.223071,
       24.54,             5331.041054,
       24.60,             5336.896445,
       24.66,             5342.791323,
       24.71,             5348.724647,
       24.77,             5354.697458,
       24.83,             5360.709754,
       24.89,             5366.761538,
       24.95,             5372.853846,
       25.00,             5378.986680,
       25.06,             5385.160039,
       25.12,             5391.374962,
       25.18,             5397.631450,
       25.24,             5403.930542,
       25.30,             5410.271198,
       25.35,             5416.654457,
       25.41,             5423.081359,
       25.47,             5429.550865,
       25.53,             5436.065053,
       25.59,             5442.622883,
       25.65,             5449.225395,
       25.71,             5455.872588,
       25.77,             5462.565503,
       25.83,             5469.303099,
       25.89,             5476.087456,
       25.95,             5482.918572,
       26.01,             5489.796449,
       26.07,             5496.722124,
       26.13,             5503.694560,
       26.19,             5510.715833,
       26.25,             5517.785945,
       26.32,             5524.904895,
       26.38,             5532.072684,
       26.44,             5539.291389,
       26.50,             5546.559971,
       26.56,             5553.879469,
       26.62,             5561.249884,
       26.69,             5568.672255,
       26.75,             5576.146581,
       26.81,             5583.673902,
       26.87,             5591.254217,
       26.94,             5598.888567,
       27.00,             5606.576950,
       27.06,             5614.320406,
       27.12,             5622.117895,
       27.19,             5629.971497,
       27.25,             5637.882250,
       27.31,             5645.849115,
       27.38,             5653.873131,
       27.44,             5661.954298,
       27.51,             5670.094694,
       27.57,             5678.293281,
       27.63,             5686.552136,
       27.70,             5694.870220,
       27.76,             5703.249612,
       27.83,             5711.690312,
       27.89,             5720.192319,
       27.96,             5728.756672,
       28.02,             5737.383373,
       28.09,             5746.074498,
       28.15,             5754.829009,
       28.22,             5763.648984,
       28.28,             5772.534423,
       28.35,             5781.486365,
       28.42,             5790.503771,
       28.48,             5799.589759,
       28.55,             5808.743289,
       28.61,             5817.965400,
       28.68,             5827.258170,
       28.75,             5836.619522,
       28.81,             5846.052573,
       28.88,             5855.557322,
       28.95,             5865.133770,
       29.02,             5874.783995,
       29.08,             5884.506957,
       29.15,             5894.304736,
       29.22,             5904.178370,
       29.29,             5914.127858,
       29.36,             5924.154241,
       29.42,             5934.258558,
       29.49,             5944.440808,
       29.56,             5954.702030,
       29.63,             5965.044303,
       29.70,             5975.467626,
       29.77,             5985.972000,
       29.84,             5996.559503,
       29.91,             6007.230135,
       29.98,             6017.985974,
       30.05,             6028.827020,
       30.12,             6039.754313,
       30.19,             6050.768890,
       30.26,             6061.871792,
       30.33,             6073.064058,
       30.40,             6084.346726,
       30.47,             6095.719797,
       30.54,             6107.185349,
       30.61,             6118.744421,
       30.68,             6130.397013,
       30.75,             6142.145203,
       30.83,             6153.990031,
       30.90,             6165.932535,
       30.97,             6177.973754,
       31.04,             6190.113689,
       31.11,             6202.355457,
       31.19,             6214.699058,
       31.26,             6227.145531,
       31.33,             6239.696954,
       31.40,             6252.353327,
       31.48,             6265.116729,
       31.55,             6277.988198,
       31.62,             6290.969813,
       31.70,             6304.061574,
       31.77,             6317.264519,
       31.85,             6330.581767,
       31.92,             6344.014356,
       31.99,             6357.562287,
       32.07,             6371.227637,
       32.14,             6385.011446,
       32.22,             6398.916831,
       32.29,             6412.943791,
       32.37,             6427.094406,
       32.44,             6441.369715,
       32.52,             6455.771795,
       32.60,             6470.301685,
       32.67,             6484.961465,
       32.75,             6499.752172,
       32.82,             6514.676925,
       32.90,             6529.735723,
       32.98,             6544.931684,
       33.05,             6560.265846,
       33.13,             6575.740289,
       33.21,             6591.357089,
       33.28,             6607.117288,
       33.36,             6623.022961,
       33.44,             6639.076189,
       33.52,             6655.280087,
       33.60,             6671.634657,
       33.67,             6688.144054,
       33.75,             6704.809318,
       33.83,             6721.631488,
       33.91,             6738.614719,
       33.99,             6755.761092,
       34.07,             6773.071644,
       34.15,             6790.548453,
       34.23,             6808.195677,
       34.31,             6826.014354,
       34.39,             6844.007602,
       34.47,             6862.177499,
       34.55,             6880.527162,
       34.63,             6899.057630,
       34.71,             6917.774099,
       34.79,             6936.677609,
       34.87,             6955.771275,
       34.95,             6975.058216,
       35.03,             6994.540510,
       35.11,             7014.222314,
       35.20,             7034.105705,
       35.28,             7054.193800,
       35.36,             7074.490758,
       35.44,             7094.999693,
       35.52,             7115.722686,
       35.61,             7136.663892,
       35.69,             7157.826429,
       35.77,             7179.214453,
       35.86,             7200.832120,
       35.94,             7222.681509,
       36.02,             7244.767816,
       36.11,             7267.094157,
       36.19,             7289.664689,
       36.28,             7312.482530,
       36.36,             7335.553914,
       36.44,             7358.881958,
       36.53,             7382.470819,
       36.61,             7406.325693,
       36.70,             7430.450735,
       36.79,             7454.850103,
       36.87,             7479.528992,
       36.96,             7504.493636,
       37.04,             7529.747153,
       37.13,             7555.295778,
       37.22,             7581.143666,
       37.30,             7607.298093,
       37.39,             7633.764253,
       37.48,             7660.546302,
       37.56,             7687.651515,
       37.65,             7715.085088,
       37.74,             7742.854293,
       37.83,             7770.964326,
       37.91,             7799.422462,
       38.00,             7828.234935,
       38.09,             7857.407979,
       38.18,             7886.949908,
       38.27,             7916.866955,
       38.36,             7947.166396,
       38.45,             7977.855503,
       38.54,             8008.942590,
       38.63,             8040.434930,
       38.72,             8072.341876,
       38.81,             8104.669661,
       38.90,             8137.426600,
       38.99,             8170.623082,
       39.08,             8204.266382,
       39.17,             8238.364813,
       39.26,             8272.928766,
       39.35,             8307.966553,
       39.44,             8343.487527,
       39.54,             8379.500001,
       39.63,             8416.015404,
       39.72,             8453.039971,
       39.81,             8490.586173,
       39.91,             8528.661282,
       40.00,             8567.275690,
       40.09,             8606.438748,
       40.18,             8646.157731,
       40.28,             8686.443029,
       40.37,             8727.302956,
       40.47,             8768.744785,
       40.56,             8810.775790,
       40.65,             8853.405323,
       40.75,             8896.636501,
       40.84,             8940.478677,
       40.94,             8984.933928,
       41.03,             9030.008490,
       41.13,             9075.704439,
       41.23,             9122.024895,
       41.32,             9168.972974,
       41.42,             9216.547636,
       41.51,             9264.752001,
       41.61,             9313.586066,
       41.71,             9363.049833,
       41.81,             9413.147457,
       41.90,             9463.881018,
       42.00,             9515.256749,
       42.10,             9567.281924,
       42.20,             9619.970053,
       42.29,             9673.337760,
       42.39,             9727.404789,
       42.49,             9782.198156,
       42.59,             9837.749036,
       42.69,             9894.091718,
       42.79,             9951.265689,
       42.89,            10009.310435,
       42.99,            10068.264404,
       43.09,            10128.163963,
       43.19,            10189.041326,
       43.29,            10250.918314,
       43.39,            10313.808436,
       43.49,            10377.710651,
       43.59,            10442.609374,
       43.69,            10508.468236,
       43.80,            10575.251907,
       43.90,            10642.866866,
       44.00,            10711.229985,
       44.10,            10780.226963,
       44.21,            10849.701931,
       44.31,            10919.488633,
       44.41,            10989.379245,
       44.51,            11059.134774,
       44.62,            11128.474658,
       44.72,            11197.076773,
       44.83,            11264.577430,
       44.93,            11330.560985,
       45.04,            11394.528664,
       45.14,            11455.971304,
       45.25,            11514.265437,
       45.35,            11568.756423,
       45.46,            11618.727276,
       45.56,            11663.357098,
       45.67,            11701.824991,
       45.77,            11733.206146,
       45.88,            11756.596537,
       45.99,            11771.050572,
       46.10,            11775.643444,
       46.20,            11769.523079,
       46.31,            11751.941319,
       46.42,            11722.264306,
       46.53,            11680.097178,
       46.63,            11625.294458,
       46.74,            11557.991232,
       46.85,            11478.696664,
       46.96,            11388.252433,
       47.07,            11287.905474,
       47.18,            11179.235235,
       47.29,            11064.153680,
       47.40,            10944.780597,
       47.51,            10823.433202,
       47.62,            10702.459888,
       47.73,            10584.188262,
       47.84,            10470.800458,
       47.95,            10364.281179,
       48.07,            10266.320019,
       48.18,            10178.303152,
       48.29,            10101.279042,
       48.40,            10035.969870,
       48.52,             9982.787125,
       48.63,             9941.866929,
       48.74,             9913.110569,
       48.85,             9896.223974,
       48.97,             9890.769680,
       49.08,             9896.197996,
       49.20,             9911.888574,
       49.31,             9937.181577,
       49.43,             9971.400545,
       49.54,            10013.874211,
       49.66,            10063.950015,
       49.77,            10121.007605,
       49.89,            10184.463003,
       50.00,            10253.776909,
       50.12,            10328.453668,
       50.24,            10408.038148,
       50.35,            10492.133409,
       50.47,            10580.364333,
       50.59,            10672.419186,
       50.71,            10767.996625,
       50.83,            10866.868046,
       50.94,            10968.794454,
       51.06,            11073.599200,
       51.18,            11181.105635,
       51.30,            11291.189065,
       51.42,            11403.735189,
       51.54,            11518.640095,
       51.66,            11635.831045,
       51.78,            11755.235302,
       51.90,            11876.800909,
       52.02,            12000.517477,
       52.14,            12126.333050,
       52.26,            12254.247626,
       52.39,            12384.261208,
       52.51,            12516.373793,
       52.63,            12650.595774,
       52.75,            12786.937542,
       52.88,            12925.451052,
       53.00,            13066.146695,
       53.12,            13209.066037,
       53.25,            13354.261031,
       53.37,            13501.773243,
       53.49,            13651.654629,
       53.62,            13803.967534,
       53.74,            13958.763915,
       53.87,            14116.116509,
       53.99,            14276.108446,
       54.12,            14438.781289,
       54.25,            14604.238950,
       54.37,            14772.564557,
       54.50,            14943.820458,
       54.63,            15118.110563,
       54.75,            15295.528393,
       54.88,            15476.167467,
       55.01,            15660.121306,
       55.14,            15847.504211,
       55.26,            16038.430485,
       55.39,            16233.004039,
       55.52,            16431.339175,
       55.65,            16633.570978,
       55.78,            16839.813750,
       55.91,            17050.212966,
       56.04,            17264.893320,
       56.17,            17484.000287,
       56.30,            17707.689734,
       56.43,            17936.107137,
       56.56,            18169.418752,
       56.70,            18407.780448,
       56.83,            18651.379264,
       56.96,            18900.381458,
       57.09,            19154.984460,
       57.23,            19415.385702,
       57.36,            19681.772225,
       57.49,            19954.372631,
       57.63,            20233.405136,
       57.76,            20519.087951,
       57.90,            20811.670465,
       58.03,            21111.402062,
       58.17,            21418.532131,
       58.30,            21733.351622,
       58.44,            22056.141095,
       58.57,            22387.181110,
       58.71,            22726.793792,
       58.85,            23075.311655,
       58.98,            23433.056826,
       59.12,            23800.403383,
       59.26,            24177.704624,
       59.40,            24565.365803,
       59.53,            24963.781783,
       59.67,            25373.388988,
       59.81,            25794.634238,
       59.95,            26227.985132,
       60.09,            26673.940444,
       60.23,            27133.019730,
       60.37,            27605.763326,
       60.51,            28092.742744,
       60.65,            28594.571060,
       60.79,            29111.871740,
       60.94,            29645.299425,
       61.08,            30195.581492,
       61.22,            30763.434927,
       61.36,            31349.659847,
       61.50,            31955.045975,
       61.65,            32580.486948,
       61.79,            33226.886792,
       61.94,            33895.201489,
       62.08,            34586.459759,
       62.22,            35301.731886,
       62.37,            36042.150503,
       62.51,            36808.920977,
       62.66,            37603.311024,
       62.81,            38426.671488,
       62.95,            39280.425952,
       63.10,            40166.070736,
       63.25,            41085.206071,
       63.39,            42039.536099,
       63.54,            43030.848091,
       63.69,            44061.033230,
       63.84,            45132.128172,
       63.99,            46246.252706,
       64.13,            47405.692874,
       64.28,            48612.859416,
       64.43,            49870.308543,
       64.58,            51180.752337,
       64.73,            52547.069135,
       64.88,            53972.324315,
       65.04,            55459.770294,
       65.19,            57012.846531,
       65.34,            58635.200304,
       65.49,            60330.717891,
       65.64,            62103.472605,
       65.80,            63957.839106,
       65.95,            65898.379091,
       66.10,            67929.945208,
       66.26,            70057.639493,
       66.41,            72286.854933,
       66.57,            74623.213119,
       66.72,            77072.626592,
       66.88,            79641.246892,
       67.03,            82335.495724,
       67.19,            85161.971443,
       67.34,            88127.480228,
       67.50,            91238.963341,
       67.66,            94503.403608,
       67.82,            97927.804639,
       67.97,           101519.024566,
       68.13,           105283.672136,
       68.29,           109227.930060,
       68.45,           113357.253671,
       68.61,           117676.318970,
       68.77,           122188.451111,
       68.93,           126895.416585,
       69.09,           131796.903657,
       69.25,           136890.106727,
       69.41,           142168.791129,
       69.57,           147622.981397,
       69.74,           153238.026063,
       69.90,           158993.766372,
       70.06,           164863.601081,
       70.22,           170813.862989,
       70.39,           176802.675919,
       70.55,           182779.539071,
       70.72,           188684.703557,
       70.88,           194448.964578,
       71.05,           199994.284889,
       71.21,           205234.418269,
       71.38,           210076.260364,
       71.54,           214422.862107,
       71.71,           218175.819677,
       71.88,           221239.534852,
       72.04,           223525.267545,
       72.21,           224956.227445,
       72.38,           225471.522641,
       72.55,           225030.316066,
       72.72,           223615.254567,
       72.89,           221233.611919,
       73.06,           217917.808390,
       73.23,           213723.852068,
       73.40,           208728.533264,
       73.57,           203025.268065,
       73.74,           196719.422337,
       73.91,           189922.908347,
       74.08,           182749.716582,
       74.26,           175311.031931,
       74.43,           167711.596792,
       74.60,           160047.425031,
       74.78,           152403.308114,
       74.95,           144852.503375,
       75.12,           137456.110545,
       75.30,           130263.279580,
       75.47,           123312.665413,
       75.65,           116632.843600,
       75.83,           110243.765074,
       76.00,           104157.691345,
       76.18,            98381.075293,
       76.36,            92914.924857,
       76.53,            87756.268178,
       76.71,            82898.880981,
       76.89,            78334.055516,
       77.07,            74051.255194,
       77.25,            70038.644542,
       77.43,            66283.463274,
       77.61,            62772.369204,
       77.79,            59491.749977,
       77.97,            56427.868544,
       78.15,            53567.039811,
       78.34,            50895.776117,
       78.52,            48400.911924,
       78.70,            46069.666165,
       78.88,            43889.787720,
       79.07,            41849.628154,
       79.25,            39938.204063,
       79.44,            38145.363330,
       79.62,            36461.764348,
       79.81,            34878.979925,
       79.99,            33389.518071,
       80.18,            31986.801211,
       80.37,            30665.124626,
       80.55,            29419.635667,
       80.74,            28246.146716,
       80.93,            27141.145578,
       81.12,            26101.546093,
       81.31,            25124.636181,
       81.50,            24207.921975,
       81.68,            23349.003129,
       81.87,            22545.458513,
       82.07,            21794.742306,
       82.26,            21094.121645,
       82.45,            20440.593499,
       82.64,            19830.822321,
       82.83,            19261.192006,
       83.03,            18727.743539,
       83.22,            18226.258130,
       83.41,            17752.288382,
       83.61,            17301.324555,
       83.80,            16868.825732,
       84.00,            16450.448428,
       84.19,            16042.119329,
       84.39,            15640.191155,
       84.58,            15241.546571,
       84.78,            14843.722886,
       84.98,            14444.891262,
       85.18,            14043.898288,
       85.38,            13640.234798,
       85.57,            13233.952747,
       85.77,            12825.571693,
       85.97,            12415.995661,
       86.17,            12006.388455,
       86.37,            11598.069747,
       86.58,            11192.452728,
       86.78,            10790.919416,
       86.98,            10394.799872,
       87.18,            10005.325444,
       87.38,             9623.585120,
       87.59,             9250.517218,
       87.79,             8886.909382,
       88.00,             8533.398590,
       88.20,             8190.480495,
       88.41,             7858.518789,
       88.61,             7537.765973,
       88.82,             7228.371682,
       89.03,             6930.402417,
       89.23,             6643.855061,
       89.44,             6368.668306,
       89.65,             6104.737204,
       89.86,             5851.923551,
       90.07,             5610.065246,
       90.28,             5378.984601,
       90.49,             5158.495617,
       90.70,             4948.411251,
       90.91,             4748.545504,
       91.12,             4558.722766,
       91.33,             4378.776779,
       91.55,             4208.555833,
       91.76,             4047.925882,
       91.97,             3896.771586,
       92.19,             3754.999423,
       92.40,             3622.533540,
       92.62,             3499.326136,
       92.83,             3385.347079,
       93.05,             3280.591171,
       93.26,             3185.074000,
       93.48,             3098.831935,
       93.70,             3021.919010,
       93.92,             2954.404844,
       94.14,             2896.373606,
       94.36,             2847.912582,
       94.58,             2809.117369,
       94.80,             2780.077331,
       95.02,             2760.873518,
       95.24,             2751.570357,
       95.46,             2752.207332,
       95.68,             2762.793796,
       95.90,             2783.299614,
       96.13,             2813.649971,
       96.35,             2853.712900,
       96.58,             2903.304477,
       96.80,             2962.168043,
       97.03,             3029.979394,
       97.25,             3106.330161,
       97.48,             3190.721569,
       97.71,             3282.546778,
       97.93,             3381.078410,
       98.16,             3485.446729,
       98.39,             3594.621977,
       98.62,             3707.397744,
       98.85,             3822.381622,
       99.08,             3937.992084,
       99.31,             4052.479267,
       99.54,             4163.954067,
       99.77,             4270.441134,
      100.00,             4369.948491,
      100.24,             4460.553784,
      100.47,             4540.495718,
      100.70,             4608.265505,
      100.94,             4662.691028,
      101.17,             4702.998147,
      101.41,             4728.853310,
      101.65,             4740.369778,
      101.88,             4738.093086,
      102.12,             4722.953237,
      102.36,             4696.203400,
      102.60,             4659.343012,
      102.83,             4614.029455,
      103.07,             4562.003240,
      103.31,             4505.004879,
      103.56,             4444.709418,
      103.80,             4382.668250,
      104.04,             4320.265472,
      104.28,             4258.678396,
      104.52,             4198.857809,
      104.77,             4141.506150,
      105.01,             4087.073354,
      105.25,             4035.754774,
      105.50,             3987.497415,
      105.75,             3942.018640,
      105.99,             3898.825908,
      106.24,             3857.256269,
      106.49,             3816.511683,
      106.73,             3775.709947,
      106.98,             3733.940798,
      107.23,             3690.313718,
      107.48,             3644.020279,
      107.73,             3594.372590,
      107.98,             3540.840703,
      108.23,             3483.081713,
      108.49,             3420.941830,
      108.74,             3354.459501,
      108.99,             3283.845667,
      109.25,             3209.459860,
      109.50,             3131.781109,
      109.75,             3051.373653,
      110.01,             2968.854723,
      110.27,             2884.869607,
      110.52,             2800.059437,
      110.78,             2715.046641,
      111.04,             2630.418315,
      111.30,             2546.717916,
      111.56,             2464.441099,
      111.82,             2384.029486,
      112.08,             2305.877940,
      112.34,             2230.333523,
      112.60,             2157.700697,
      112.86,             2088.248589,
      113.12,             2022.215156,
      113.39,             1959.813417,
      113.65,             1901.236646,
      113.92,             1846.662531,
      114.18,             1796.261486,
      114.45,             1750.195613,
      114.71,             1708.628051,
      114.98,             1671.720903,
      115.25,             1639.640426,
      115.52,             1612.554956,
      115.79,             1590.640103,
      116.06,             1574.073555,
      116.33,             1563.036116,
      116.60,             1557.706516,
      116.87,             1558.259323,
      117.14,             1564.853522,
      117.41,             1577.630432,
      117.69,             1596.697081,
      117.96,             1622.119974,
      118.24,             1653.905343,
      118.51,             1691.984609,
      118.79,             1736.197747,
      119.06,             1786.275628,
      119.34,             1841.822351,
      119.62,             1902.300696,
      119.90,             1967.024848,
      120.18,             2026.901547,
      120.46,             2083.684813,
      120.74,             2140.927365,
      121.02,             2197.416562,
      121.30,             2251.902353,
      121.58,             2303.145078,
      121.86,             2349.969502,
      122.15,             2391.314694,
      122.43,             2426.277665,
      122.72,             2454.150781,
      123.00,             2474.448778,
      123.29,             2486.911876,
      123.58,             2491.501630,
      123.87,             2488.382218,
      124.15,             2477.884079,
      124.44,             2460.472733,
      124.73,             2436.702028,
      125.02,             2407.183999,
      125.31,             2372.549386,
      125.61,             2333.421658,
      125.90,             2290.400380,
      126.19,             2244.048751,
      126.49,             2194.887366,
      126.78,             2143.392137,
      127.08,             2090.001569,
      127.37,             2035.115721,
      127.67,             1979.102437,
      127.96,             1922.304624,
      128.26,             1865.035054,
      128.56,             1807.586758,
      128.86,             1750.226786,
      129.16,             1693.200369,
      129.46,             1636.726758,
      129.76,             1581.003386,
      130.07,             1526.198589,
      130.37,             1472.460958,
      130.67,             1419.909992,
      130.98,             1368.645446,
      131.28,             1318.744213,
      131.59,             1270.263446,
      131.89,             1223.242629,
      132.20,             1177.704624,
      132.51,             1133.658783,
      132.82,             1091.103027,
      133.13,             1050.022808,
      133.44,             1010.397761,
      133.75,              972.199933,
      134.06,              935.395449,
      134.37,              899.946486,
      134.68,              865.812413,
      135.00,              832.950317,
      135.31,              801.316242,
      135.63,              770.865922,
      135.94,              741.555092,
      136.26,              713.340212,
      136.58,              686.178887,
      136.89,              660.029864,
      137.21,              634.853553,
      137.53,              610.611818,
      137.85,              587.268187,
      138.17,              564.787850,
      138.50,              543.137450,
      138.82,              522.285192,
      139.14,              502.200941,
      139.46,              482.855602,
      139.79,              464.221638,
      140.12,              446.272760,
      140.44,              428.983822,
      140.77,              412.331028,
      141.10,              396.291516,
      141.42,              380.843571,
      141.75,              365.966721,
      142.08,              351.641328,
      142.41,              337.848998,
      142.75,              324.572276,
      143.08,              311.794534,
      143.41,              299.500291,
      143.75,              287.675207,
      144.08,              276.305461,
      144.42,              265.378481,
      144.75,              254.882731,
      145.09,              244.807198,
      145.43,              235.142322,
      145.77,              225.879062,
      146.11,              217.009417,
      146.45,              208.526426,
      146.79,              200.424165,
      147.13,              192.697335,
      147.47,              185.341987,
      147.81,              178.355108,
      148.16,              171.734515,
      148.50,              165.479378,
      148.85,              159.590008,
      149.20,              154.067652,
      149.54,              148.914908,
      149.89,              144.135828,
      150.24,              139.735505,
      150.59,              135.720795,
      150.94,              132.099805,
      151.29,              128.882301,
      151.65,              126.079922,
      152.00,              123.705865,
      152.35,              121.775197,
      152.71,              120.305270,
      153.06,              119.315101,
      153.42,              118.826095,
      153.78,              118.861945,
      154.13,              119.448419,
      154.49,              120.613678,
      154.85,              122.388480,
      155.21,              124.805245,
      155.57,              127.898990,
      155.94,              131.706397,
      156.30,              136.265497,
      156.66,              141.615568,
      157.03,              147.796097,
      157.39,              154.845947,
      157.76,              162.802109,
      158.13,              171.698562,
      158.50,              181.563883,
      158.87,              192.419477,
      159.24,              204.276877,
      159.61,              217.134838,
      159.98,              230.975798,
      160.35,              245.762557,
      160.72,              261.434534,
      161.10,              277.904549,
      161.47,              295.055702,
      161.85,              312.738983,
      162.23,              330.773067,
      162.60,              348.944523,
      162.98,              367.011444,
      163.36,              384.708129,
      163.74,              401.753396,
      164.12,              417.860553,
      164.51,              432.748522,
      164.89,              446.154925,
      165.27,              457.848042,
      165.66,              467.637924,
      166.04,              475.384809,
      166.43,              481.004633,
      166.82,              484.470900,
      167.21,              485.812393,
      167.60,              485.108811,
      167.99,              482.482561,
      168.38,              478.089927,
      168.77,              472.111193,
      169.16,              464.741090,
      169.56,              456.179750,
      169.95,              446.625227,
      170.35,              436.267991,
      170.74,              425.285730,
      171.14,              413.840960,
      171.54,              402.078950,
      171.94,              390.127613,
      172.34,              378.097097,
      172.74,              366.081128,
      173.14,              354.157743,
      173.55,              342.390953,
      173.95,              330.832401,
      174.35,              319.522612,
      174.76,              308.492447,
      175.17,              297.764872,
      175.58,              287.355784,
      175.98,              277.275575,
      176.39,              267.529648,
      176.81,              258.119666,
      177.22,              249.044381,
      177.63,              240.299638,
      178.04,              231.879617,
      178.46,              223.777044,
      178.87,              215.983503,
      179.29,              208.489642,
      179.71,              201.285588,
      180.13,              194.737526,
      180.54,              189.286245,
      180.97,              184.019303,
      181.39,              178.930464,
      181.81,              174.013390,
      182.23,              169.261847,
      182.66,              164.669703,
      183.08,              160.230828,
      183.51,              155.939195,
      183.94,              151.789090,
      184.36,              147.774692,
      184.79,              143.890702,
      185.22,              140.131822,
      185.66,              136.492855,
      186.09,              132.969021,
      186.52,              129.555645,
      186.96,              126.248154,
      187.39,              123.042185,
      187.83,              119.933788,
      188.26,              116.919015,
      188.70,              113.994021,
      189.14,              111.155273,
      189.58,              108.399343,
      190.02,              105.723008,
      190.47,              103.123111,
      190.91,              100.596689,
      191.35,               98.140937,
      191.80,               95.753163,
      192.25,               93.430812,
      192.69,               91.171452,
      193.14,               88.972756,
      193.59,               86.832519,
      194.04,               84.748655,
      194.50,               82.719156,
      194.95,               80.742144,
      195.40,               78.815808,
      195.86,               76.938446,
      196.31,               75.108457,
      196.77,               73.324293,
      197.23,               71.584520,
      197.69,               69.887776,
      198.15,               68.232784,
      198.61,               66.618327,
      199.07,               65.043284,
      199.54,               63.506616,
      200.00,               62.007334,
      200.47,               60.544557,
      200.93,               59.117452,
      201.40,               57.725282,
      201.87,               56.367371,
      202.34,               55.043139,
      202.81,               53.752085,
      203.28,               52.493773,
      203.76,               51.267871,
      204.23,               50.074120,
      204.71,               48.912373,
      205.18,               47.782537,
      205.66,               46.684654,
      206.14,               45.618848,
      206.62,               44.585327,
      207.10,               43.584424,
      207.58,               42.616575,
      208.07,               41.682300,
      208.55,               40.782253,
      209.04,               39.917172,
      209.52,               39.087889,
      210.01,               38.295338,
      210.50,               37.540528,
      210.99,               36.824539,
      211.48,               36.148472,
      211.97,               35.513451,
      212.47,               34.920544,
      212.96,               34.370740,
      213.46,               33.864859,
      213.96,               33.403473,
      214.45,               32.986821,
      214.95,               32.614705,
      215.45,               32.286408,
      215.96,               32.000538,
      216.46,               31.755027,
      216.96,               31.546997,
      217.47,               31.372811,
      217.97,               31.228053,
      218.48,               31.107599,
      218.99,               31.005818,
      219.50,               30.916683,
      220.01,               30.834053,
      220.52,               30.751890,
      221.04,               30.664532,
      221.55,               30.566897,
      222.07,               30.454694,
      222.58,               30.324504,
      223.10,               30.173906,
      223.62,               30.001413,
      224.14,               29.806466,
      224.66,               29.589343,
      225.19,               29.351002,
      225.71,               29.093001,
      226.24,               28.817325,
      226.76,               28.526281,
      227.29,               28.222413,
      227.82,               27.908342,
      228.35,               27.586727,
      228.88,               27.260176,
      229.42,               26.931172,
      229.95,               26.602013,
      230.49,               26.274797,
      231.02,               25.951374,
      231.56,               25.633291,
      232.10,               25.321870,
      232.64,               25.018117,
      233.18,               24.722791,
      233.73,               24.436360,
      234.27,               24.159105,
      234.82,               23.891055,
      235.36,               23.632119,
      235.91,               23.382047,
      236.46,               23.140557,
      237.01,               22.907381,
      237.56,               22.682299,
      238.12,               22.465291,
      238.67,               22.256544,
      239.23,               22.056515,
      239.78,               21.866015,
      240.34,               21.686134,
      240.90,               21.518349,
      241.46,               21.364394,
      242.02,               21.226245,
      242.59,               21.106082,
      243.15,               21.006182,
      243.72,               20.928903,
      244.29,               20.876584,
      244.85,               20.851500,
      245.43,               20.855833,
      246.00,               20.891630,
      246.57,               20.960773,
      247.14,               21.064923,
      247.72,               21.205546,
      248.30,               21.383867,
      248.87,               21.600823,
      249.45,               21.857068,
      250.03,               22.152924,
      250.62,               22.488339,
      251.20,               22.862855,
      251.79,               23.275528,
      252.37,               23.724850,
      252.96,               24.208660,
      253.55,               24.724028,
      254.14,               25.267171,
      254.73,               25.833372,
      255.32,               26.416875,
      255.92,               27.010924,
      256.51,               27.607769,
      257.11,               28.198784,
      257.71,               28.774701,
      258.31,               29.325866,
      258.91,               29.842637,
      259.51,               30.315734,
      260.12,               30.736730,
      260.72,               31.098392,
      261.33,               31.395079,
      261.94,               31.622967,
      262.55,               31.780184,
      263.16,               31.866794,
      263.77,               31.884729,
      264.39,               31.837533,
      265.00,               31.730078,
      265.62,               31.568226,
      266.24,               31.358492,
      266.86,               31.107640,
      267.48,               30.822436,
      268.10,               30.509300,
      268.73,               30.174155,
      269.35,               29.822208,
      269.98,               29.457875,
      270.61,               29.084678,
      271.24,               28.705309,
      271.87,               28.321607,
      272.50,               27.934694,
      273.14,               27.545058,
      273.77,               27.152721,
      274.41,               26.757360,
      275.05,               26.358477,
      275.69,               25.955520,
      276.33,               25.548001,
      276.98,               25.135568,
      277.62,               24.718063,
      278.27,               24.295550,
      278.92,               23.868289,
      279.57,               23.436735,
      280.22,               23.001472,
      280.87,               22.563196,
      281.52,               22.122686,
      282.18,               21.680721,
      282.84,               21.238122,
      283.49,               20.795679,
      284.15,               20.354171,
      284.82,               19.914346,
      285.48,               19.476891,
      286.14,               19.042501,
      286.81,               18.611789,
      287.48,               18.185359,
      288.15,               17.763739,
      288.82,               17.347430,
      289.49,               16.936877,
      290.17,               16.532476,
      290.84,               16.134548,
      291.52,               15.743396,
      292.20,               15.359247,
      292.88,               14.982288,
      293.56,               14.612666,
      294.24,               14.250463,
      294.93,               13.895742,
      295.62,               13.548544,
      296.30,               13.208848,
      296.99,               12.876623,
      297.69,               12.551828,
      298.38,               12.234380,
      299.07,               11.924205,
      299.77,               11.621211,
      300.47,               11.325282,
      301.17,               11.036326,
      301.87,               10.754208,
      302.57,               10.478833,
      303.28,               10.210074,
      303.98,                9.947822,
      304.69,                9.691961,
      305.40,                9.442379,
      306.11,                9.198966,
      306.82,                8.961613,
      307.54,                8.730215,
      308.25,                8.504667,
      308.97,                8.284872,
      309.69,                8.070736,
      310.41,                7.862176,
      311.14,                7.659116,
      311.86,                7.461499,
      312.59,                7.269283,
      313.31,                7.082447,
      314.04,                6.901001,
      314.77,                6.724978,
      315.51,                6.554449,
      316.24,                6.389513,
      316.98,                6.230309,
      317.72,                6.077007,
      318.46,                5.929818,
      319.20,                5.788989,
      319.94,                5.654796,
      320.69,                5.527558,
      321.43,                5.407624,
      322.18,                5.295380,
      322.93,                5.191247,
      323.68,                5.095682,
      324.44,                5.009176,
      325.19,                4.932259,
      325.95,                4.865496,
      326.71,                4.809488,
      327.47,                4.764872,
      328.23,                4.732310,
      329.00,                4.712495,
      329.76,                4.706128,
      330.53,                4.713913,
      331.30,                4.736532,
      332.07,                4.774624,
      332.85,                4.828749,
      333.62,                4.899351,
      334.40,                4.986714,
      335.18,                5.090908,
      335.96,                5.211736,
      336.74,                5.348676,
      337.52,                5.500829,
      338.31,                5.666865,
      339.10,                5.845003,
      339.89,                6.032985,
      340.68,                6.228096,
      341.47,                6.427215,
      342.27,                6.626885,
      343.06,                6.823438,
      343.86,                7.013134,
      344.66,                7.192329,
      345.46,                7.357644,
      346.27,                7.506133,
      347.08,                7.635424,
      347.88,                7.743822,
      348.69,                7.830374,
      349.51,                7.894885,
      350.32,                7.937882,
      351.14,                7.960554,
      351.95,                7.964652,
      352.77,                7.952369,
      353.59,                7.926237,
      354.42,                7.888998,
      355.24,                7.843506,
      356.07,                7.792638,
      356.90,                7.739217,
      357.73,                7.685958,
      358.56,                7.635420,
      359.40,                7.589980,
      360.23,                7.551805,
      361.07,                7.522834,
      361.91,                7.504755,
      362.76,                7.498995,
      363.60,                7.506683,
      364.45,                7.528635,
      365.30,                7.556038,
      366.15,                7.580821,
      367.00,                7.619681,
      367.85,                7.671693,
      368.71,                7.735482,
      369.57,                7.809237,
      370.43,                7.890741,
      371.29,                7.977418,
      372.16,                8.066425,
      373.02,                8.154757,
      373.89,                8.239372,
      374.76,                8.317341,
      375.64,                8.385984,
      376.51,                8.443003,
      377.39,                8.486587,
      378.27,                8.515479,
      379.15,                8.529017,
      380.03,                8.527114,
      380.91,                8.510215,
      381.80,                8.479217,
      382.69,                8.435370,
      383.58,                8.380159,
      384.48,                8.315195,
      385.37,                8.242105,
      386.27,                8.162434,
      387.17,                8.077573,
      388.07,                7.988692,
      388.97,                7.896717,
      389.88,                7.802299,
      390.79,                7.705839,
      391.70,                7.607500,
      392.61,                7.507250,
      393.52,                7.404922,
      394.44,                7.300257,
      395.36,                7.192975,
      396.28,                7.082819,
      397.20,                6.969602,
      398.13,                6.853238,
      399.05,                6.733759,
      399.98,                6.611318,
      400.91,                6.486181,
      401.85,                6.358711,
      402.78,                6.229338,
      403.72,                6.098545,
      404.66,                5.966833,
      405.60,                5.834702,
      406.55,                5.702640,
      407.49,                5.571102,
      408.44,                5.440509,
      409.39,                5.311248,
      410.35,                5.183670,
      411.30,                5.058096,
      412.26,                4.934824,
      413.22,                4.814134,
      414.18,                4.696294,
      415.15,                4.581557,
      416.11,                4.470175,
      417.08,                4.362387,
      418.05,                4.258425,
      419.03,                4.158508,
      420.00,                4.062846,
      420.98,                3.971628,
      421.96,                3.885028,
      422.94,                3.803195,
      423.93,                3.726263,
      424.92,                3.654339,
      425.91,                3.587511,
      426.90,                3.525848,
      427.89,                3.469401,
      428.89,                3.418203,
      429.89,                3.372270,
      430.89,                3.331605,
      431.89,                3.296186,
      432.90,                3.265969,
      433.90,                3.240869,
      434.91,                3.220759,
      435.93,                3.205449,
      436.94,                3.194674,
      437.96,                3.188085,
      438.98,                3.185231,
      440.00,                3.185560,
      441.03,                3.188420,
      442.05,                3.193064,
      443.08,                3.198675,
      444.11,                3.204391,
      445.15,                3.209339,
      446.18,                3.212671,
      447.22,                3.213608,
      448.27,                3.211476,
      449.31,                3.205732,
      450.36,                3.195991,
      451.40,                3.182037,
      452.46,                3.163816,
      453.51,                3.141433,
      454.56,                3.115132,
      455.62,                3.085267,
      456.68,                3.052281,
      457.75,                3.016667,
      458.81,                2.978954,
      459.88,                2.939666,
      460.95,                2.899312,
      462.03,                2.858359,
      463.10,                2.817218,
      464.18,                2.776237,
      465.26,                2.735684,
      466.34,                2.695755,
      467.43,                2.656559,
      468.52,                2.618135,
      469.61,                2.580450,
      470.70,                2.543410,
      471.80,                2.506877,
      472.90,                2.470683,
      474.00,                2.434641,
      475.10,                2.398573,
      476.21,                2.362312,
      477.32,                2.325726,
      478.43,                2.288720,
      479.54,                2.251245,
      480.66,                2.213298,
      481.78,                2.174923,
      482.90,                2.136198,
      484.03,                2.097239,
      485.15,                2.058184,
      486.28,                2.019186,
      487.41,                1.980412,
      488.55,                1.942024,
      489.69,                1.904188,
      490.83,                1.867059,
      491.97,                1.830785,
      493.12,                1.795503,
      494.26,                1.761338,
      495.42,                1.728409,
      496.57,                1.696821,
      497.73,                1.666676,
      498.88,                1.638069,
      500.05,                1.611091,
      501.21,                1.585826,
      502.38,                1.562354,
      503.55,                1.540754,
      504.72,                1.521092,
      505.89,                1.503429,
      507.07,                1.487807,
      508.25,                1.474253,
      509.44,                1.462773,
      510.62,                1.453344,
      511.81,                1.445911,
      513.00,                1.440384,
      514.20,                1.436638,
      515.40,                1.434508,
      516.60,                1.433799,
      517.80,                1.434280,
      519.00,                1.435693,
      520.21,                1.437765,
      521.42,                1.440211,
      522.64,                1.442749,
      523.86,                1.445103,
      525.08,                1.447024,
      526.30,                1.448288,
      527.52,                1.448712,
      528.75,                1.448155,
      529.98,                1.446523,
      531.22,                1.443768,
      532.45,                1.439887,
      533.69,                1.434912,
      534.94,                1.428908,
      536.18,                1.421962,
      537.43,                1.414175,
      538.68,                1.405651,
      539.94,                1.396497,
      541.19,                1.386808,
      542.45,                1.376674,
      543.72,                1.366174,
      544.98,                1.355380,
      546.25,                1.344356,
      547.52,                1.333167,
      548.80,                1.321874,
      550.08,                1.310547,
      551.36,                1.299254,
      552.64,                1.288073,
      553.93,                1.277081,
      555.22,                1.266356,
      556.51,                1.255973,
      557.81,                1.245995,
      559.11,                1.236475,
      560.41,                1.227447,
      561.71,                1.218928,
      563.02,                1.210914,
      564.33,                1.203379,
      565.65,                1.196278,
      566.96,                1.189548,
      568.28,                1.183118,
      569.61,                1.176903,
      570.93,                1.170816,
      572.26,                1.164770,
      573.60,                1.158680,
      574.93,                1.152467,
      576.27,                1.146058,
      577.61,                1.139392,
      578.96,                1.132409,
      580.30,                1.125061,
      581.66,                1.117304,
      583.01,                1.109103,
      584.37,                1.100422,
      585.73,                1.091238,
      587.09,                1.081532,
      588.46,                1.071288,
      589.83,                1.060503,
      591.20,                1.049181,
      592.58,                1.037332,
      593.96,                1.024979,
      595.34,                1.012151,
      596.73,                0.998886,
      598.12,                0.985231,
      599.51,                0.971235,
      600.91,                0.956952,
      602.31,                0.942440,
      603.71,                0.927755,
      605.12,                0.912951,
      606.52,                0.898083,
      607.94,                0.883198,
      609.35,                0.868344,
      610.77,                0.853561,
      612.19,                0.838887,
      613.62,                0.824355,
      615.05,                0.809996,
      616.48,                0.795839,
      617.92,                0.781907,
      619.35,                0.768224,
      620.80,                0.754811,
      622.24,                0.741687,
      623.69,                0.728870,
      625.14,                0.716375,
      626.60,                0.704215,
      628.06,                0.692402,
      629.52,                0.680944,
      630.99,                0.669846,
      632.46,                0.659112,
      633.93,                0.648741,
      635.40,                0.638727,
      636.88,                0.629063,
      638.37,                0.619736,
      639.85,                0.610729,
      641.34,                0.602022,
      642.84,                0.593590,
      644.33,                0.585404,
      645.83,                0.577434,
      647.34,                0.569648,
      648.85,                0.562010,
      650.36,                0.554487,
      651.87,                0.547046,
      653.39,                0.539657,
      654.91,                0.532294,
      656.43,                0.524935,
      657.96,                0.517565,
      659.50,                0.510171,
      661.03,                0.502749,
      662.57,                0.495300,
      664.11,                0.487828,
      665.66,                0.480342,
      667.21,                0.472855,
      668.76,                0.465380,
      670.32,                0.457935,
      671.88,                0.450537,
      673.45,                0.443202,
      675.01,                0.435949,
      676.59,                0.428794,
      678.16,                0.421753,
      679.74,                0.414840,
      681.32,                0.408072,
      682.91,                0.401459,
      684.50,                0.395017,
      686.09,                0.388755,
      687.69,                0.382684,
      689.29,                0.376815,
      690.90,                0.371156,
      692.51,                0.365713,
      694.12,                0.360493,
      695.74,                0.355499,
      697.36,                0.350731,
      698.98,                0.346187,
      700.61,                0.341863,
      702.24,                0.337750,
      703.87,                0.333834,
      705.51,                0.330100,
      707.16,                0.326529,
      708.80,                0.323098,
      710.45,                0.319781,
      712.11,                0.316553,
      713.76,                0.313387,
      715.43,                0.310257,
      717.09,                0.307138,
      718.76,                0.304007,
      720.44,                0.300846,
      722.11,                0.297640,
      723.80,                0.294377,
      725.48,                0.291049,
      727.17,                0.287653,
      728.86,                0.284188,
      730.56,                0.280658,
      732.26,                0.277066,
      733.97,                0.273421,
      735.68,                0.269730,
      737.39,                0.266003,
      739.11,                0.262249,
      740.83,                0.258479,
      742.55,                0.254700,
      744.28,                0.250924,
      746.01,                0.247157,
      747.75,                0.243407,
      749.49,                0.239680,
      751.24,                0.235983,
      752.99,                0.232320,
      754.74,                0.228694,
      756.50,                0.225109,
      758.26,                0.221566,
      760.03,                0.218068,
      761.79,                0.214616,
      763.57,                0.211209,
      765.35,                0.207849,
      767.13,                0.204536,
      768.92,                0.201269,
      770.71,                0.198048,
      772.50,                0.194874,
      774.30,                0.191746,
      776.10,                0.188665,
      777.91,                0.185629,
      779.72,                0.182639,
      781.54,                0.179694,
      783.36,                0.176796,
      785.18,                0.173942,
      787.01,                0.171134,
      788.84,                0.168370,
      790.68,                0.165651,
      792.52,                0.162976,
      794.36,                0.160344,
      796.21,                0.157756,
      798.07,                0.155211,
      799.93,                0.152708,
      801.79,                0.150247,
      803.66,                0.147828,
      805.53,                0.145450,
      807.40,                0.143112,
      809.28,                0.140814,
      811.17,                0.138556,
      813.06,                0.136337,
      814.95,                0.134157,
      816.85,                0.132016,
      818.75,                0.129912,
      820.66,                0.127845,
      822.57,                0.125816,
      824.48,                0.123822,
      826.40,                0.121865,
      828.33,                0.119943,
      830.26,                0.118055,
      832.19,                0.116201,
      834.13,                0.114381,
      836.07,                0.112594,
      838.02,                0.110838,
      839.97,                0.109114,
      841.92,                0.107421,
      843.88,                0.105757,
      845.85,                0.104122,
      847.82,                0.102515,
      849.79,                0.100936,
      851.77,                0.099384,
      853.75,                0.097857,
      855.74,                0.096357,
      857.74,                0.094881,
      859.73,                0.093430,
      861.73,                0.092003,
      863.74,                0.090600,
      865.75,                0.089221,
      867.77,                0.087866,
      869.79,                0.086534,
      871.81,                0.085226,
      873.84,                0.083942,
      875.88,                0.082681,
      877.92,                0.081445,
      879.96,                0.080232,
      882.01,                0.079043,
      884.07,                0.077878,
      886.12,                0.076738,
      888.19,                0.075622,
      890.26,                0.074530,
      892.33,                0.073463,
      894.41,                0.072420,
      896.49,                0.071401,
      898.58,                0.070407,
      900.67,                0.069436,
      902.77,                0.068490,
      904.87,                0.067566,
      906.98,                0.066665,
      909.09,                0.065785,
      911.20,                0.064927,
      913.33,                0.064089,
      915.45,                0.063269,
      917.58,                0.062467,
      919.72,                0.061682,
      921.86,                0.060912,
      924.01,                0.060155,
      926.16,                0.059411,
      928.32,                0.058678,
      930.48,                0.057955,
      932.65,                0.057241,
      934.82,                0.056534,
      936.99,                0.055835,
      939.18,                0.055143,
      941.36,                0.054456,
      943.56,                0.053774,
      945.75,                0.053098,
      947.95,                0.052428,
      950.16,                0.051762,
      952.37,                0.051102,
      954.59,                0.050447,
      956.82,                0.049798,
      959.04,                0.049154,
      961.28,                0.048516,
      963.51,                0.047884,
      965.76,                0.047257,
      968.01,                0.046636,
      970.26,                0.046021,
      972.52,                0.045411,
      974.78,                0.044806,
      977.05,                0.044207,
      979.33,                0.043614,
      981.61,                0.043026,
      983.90,                0.042443,
      986.19,                0.041867,
      988.48,                0.041297,
      990.79,                0.040733,
      993.09,                0.040177,
      995.40,                0.039627,
      997.72,                0.039085,
     1000.05,                0.038552,
     1002.37,                0.038026,
     1004.71,                0.037509,
     1007.05,                0.037001,
     1009.39,                0.036502,
     1011.74,                0.036013,
     1014.10,                0.035533,
     1016.46,                0.035063,
     1018.83,                0.034602,
     1021.20,                0.034151,
     1023.58,                0.033710,
     1025.96,                0.033278,
     1028.35,                0.032856,
     1030.74,                0.032443,
     1033.14,                0.032039,
     1035.55,                0.031645,
     1037.96,                0.031258,
     1040.38,                0.030880,
     1042.80,                0.030511,
     1045.23,                0.030148,
     1047.66,                0.029794,
     1050.10,                0.029446,
     1052.55,                0.029105,
     1055.00,                0.028770,
     1057.46,                0.028441,
     1059.92,                0.028117,
     1062.39,                0.027799,
     1064.86,                0.027486,
     1067.34,                0.027177,
     1069.83,                0.026871,
     1072.32,                0.026570,
     1074.81,                0.026271,
     1077.32,                0.025975,
     1079.83,                0.025682,
     1082.34,                0.025390,
     1084.86,                0.025100,
     1087.38,                0.024811,
     1089.92,                0.024523,
     1092.45,                0.024236,
     1095.00,                0.023951,
     1097.55,                0.023666,
     1100.11,                0.023382,
     1102.67,                0.023100,
     1105.23,                0.022818,
     1107.81,                0.022538,
     1110.39,                0.022259,
     1112.97,                0.021982,
     1115.56,                0.021706,
     1118.16,                0.021431,
     1120.77,                0.021159,
     1123.38,                0.020888,
     1125.99,                0.020619,
     1128.61,                0.020351,
     1131.24,                0.020086,
     1133.88,                0.019822,
     1136.52,                0.019561,
     1139.16,                0.019301,
     1141.82,                0.019044,
     1144.47,                0.018788,
     1147.14,                0.018535,
     1149.81,                0.018284,
     1152.49,                0.018036,
     1155.17,                0.017791,
     1157.86,                0.017548,
     1160.56,                0.017308,
     1163.26,                0.017071,
     1165.97,                0.016837,
     1168.68,                0.016606,
     1171.40,                0.016378,
     1174.13,                0.016154,
     1176.87,                0.015933,
     1179.61,                0.015715,
     1182.35,                0.015500,
     1185.11,                0.015289,
     1187.87,                0.015081,
     1190.63,                0.014876,
     1193.40,                0.014674,
     1196.18,                0.014475,
     1198.97,                0.014278,
     1201.76,                0.014085,
     1204.56,                0.013894,
     1207.36,                0.013706,
     1210.17,                0.013520,
     1212.99,                0.013337,
     1215.82,                0.013156,
     1218.65,                0.012977,
     1221.49,                0.012801,
     1224.33,                0.012627,
     1227.18,                0.012455,
     1230.04,                0.012285,
     1232.90,                0.012117,
     1235.77,                0.011952,
     1238.65,                0.011789,
     1241.54,                0.011627,
     1244.43,                0.011468,
     1247.33,                0.011312,
     1250.23,                0.011157,
     1253.14,                0.011005,
     1256.06,                0.010855,
     1258.98,                0.010707,
     1261.91,                0.010562,
     1264.85,                0.010419,
     1267.80,                0.010278,
     1270.75,                0.010140,
     1273.71,                0.010004,
     1276.67,                0.009870,
     1279.65,                0.009739,
     1282.63,                0.009611,
     1285.62,                0.009484,
     1288.61,                0.009361,
     1291.61,                0.009239,
     1294.62,                0.009120,
     1297.63,                0.009003,
     1300.65,                0.008889,
     1303.68,                0.008776,
     1306.72,                0.008666,
     1309.76,                0.008558,
     1312.81,                0.008452,
     1315.87,                0.008347,
     1318.93,                0.008245,
     1322.00,                0.008145,
     1325.08,                0.008046,
     1328.17,                0.007949,
     1331.26,                0.007854,
     1334.36,                0.007760,
     1337.46,                0.007668,
     1340.58,                0.007578,
     1343.70,                0.007488,
     1346.83,                0.007400,
     1349.97,                0.007314,
     1353.11,                0.007228,
     1356.26,                0.007143,
     1359.42,                0.007058,
     1362.58,                0.006975,
     1365.76,                0.006892,
     1368.94,                0.006810,
     1372.12,                0.006728,
     1375.32,                0.006647,
     1378.52,                0.006566,
     1381.73,                0.006485,
     1384.95,                0.006405,
     1388.17,                0.006326,
     1391.41,                0.006247,
     1394.65,                0.006169,
     1397.89,                0.006091,
     1401.15,                0.006014,
     1404.41,                0.005938,
     1407.68,                0.005862,
     1410.96,                0.005787,
     1414.25,                0.005713,
     1417.54,                0.005639,
     1420.84,                0.005566,
     1424.15,                0.005494,
     1427.46,                0.005423,
     1430.79,                0.005352,
     1434.12,                0.005282,
     1437.46,                0.005213,
     1440.81,                0.005145,
     1444.16,                0.005077,
     1447.53,                0.005010,
     1450.89,                0.004944,
     1454.27,                0.004878,
     1457.66,                0.004813,
     1461.05,                0.004749,
     1464.46,                0.004686,
     1467.87,                0.004623,
     1471.29,                0.004561,
     1474.71,                0.004500,
     1478.14,                0.004439,
     1481.59,                0.004380,
     1485.04,                0.004321,
     1488.49,                0.004262,
     1491.96,                0.004205,
     1495.43,                0.004148,
     1498.92,                0.004093,
     1502.41,                0.004038,
     1505.90,                0.003983,
     1509.41,                0.003930,
     1512.93,                0.003877,
     1516.45,                0.003825,
     1519.98,                0.003773,
     1523.52,                0.003723,
     1527.07,                0.003673,
     1530.62,                0.003624,
     1534.19,                0.003575,
     1537.76,                0.003527,
     1541.34,                0.003480,
     1544.93,                0.003433,
     1548.53,                0.003387,
     1552.13,                0.003342,
     1555.75,                0.003297,
     1559.37,                0.003252,
     1563.00,                0.003209,
     1566.64,                0.003165,
     1570.29,                0.003123,
     1573.94,                0.003081,
     1577.61,                0.003039,
     1581.28,                0.002998,
     1584.97,                0.002958,
     1588.66,                0.002918,
     1592.36,                0.002879,
     1596.06,                0.002840,
     1599.78,                0.002802,
     1603.51,                0.002764,
     1607.24,                0.002727,
     1610.98,                0.002690,
     1614.73,                0.002654,
     1618.49,                0.002618,
     1622.26,                0.002583,
     1626.04,                0.002549,
     1629.83,                0.002514,
     1633.62,                0.002481,
     1637.42,                0.002448,
     1641.24,                0.002415,
     1645.06,                0.002383,
     1648.89,                0.002351,
     1652.73,                0.002319,
     1656.58,                0.002288,
     1660.43,                0.002258,
     1664.30,                0.002228,
     1668.18,                0.002198,
     1672.06,                0.002169,
     1675.95,                0.002140,
     1679.86,                0.002111,
     1683.77,                0.002083,
     1687.69,                0.002056,
     1691.62,                0.002028,
     1695.56,                0.002001,
     1699.51,                0.001975,
     1703.46,                0.001948,
     1707.43,                0.001922,
     1711.41,                0.001897,
     1715.39,                0.001872,
     1719.39,                0.001847,
     1723.39,                0.001822,
     1727.40,                0.001798,
     1731.42,                0.001774,
     1735.46,                0.001751,
     1739.50,                0.001728,
     1743.55,                0.001705,
     1747.61,                0.001683,
     1751.68,                0.001660,
     1755.76,                0.001639,
     1759.85,                0.001617,
     1763.94,                0.001596,
     1768.05,                0.001575,
     1772.17,                0.001554,
     1776.29,                0.001534,
     1780.43,                0.001514,
     1784.58,                0.001494,
     1788.73,                0.001474,
     1792.90,                0.001455,
     1797.07,                0.001436,
     1801.26,                0.001417,
     1805.45,                0.001399,
     1809.65,                0.001381,
     1813.87,                0.001363,
     1818.09,                0.001345,
     1822.33,                0.001328,
     1826.57,                0.001311,
     1830.82,                0.001294,
     1835.09,                0.001278,
     1839.36,                0.001262,
     1843.64,                0.001246,
     1847.93,                0.001230,
     1852.24,                0.001215,
     1856.55,                0.001199,
     1860.87,                0.001185,
     1865.21,                0.001170,
     1869.55,                0.001156,
     1873.90,                0.001141,
     1878.27,                0.001128,
     1882.64,                0.001114,
     1887.02,                0.001100,
     1891.42,                0.001087,
     1895.82,                0.001074,
     1900.24,                0.001062,
     1904.66,                0.001049,
     1909.10,                0.001037,
     1913.54,                0.001025,
     1918.00,                0.001013,
     1922.46,                0.001002,
     1926.94,                0.000990,
     1931.43,                0.000979,
     1935.92,                0.000968,
     1940.43,                0.000957,
     1944.95,                0.000947,
     1949.48,                0.000936,
     1954.02,                0.000925,
     1958.57,                0.000915,
     1963.13,                0.000904,
     1967.70,                0.000894,
     1972.28,                0.000884,
     1976.88,                0.000874,
     1981.48,                0.000863,
     1986.09,                0.000853,
     1990.72,                0.000843,
     1995.35,                0.000833,
     2000.00,                0.000823,
